participant.label,round 1_contribute,round 2_contribute,round 3_contribute,round 4_contribute,round 5_contribute,round 6_contribute,round 7_contribute,round 8_contribute,round 9_contribute,round 10_contribute,round 1_mpcr,round 2_mpcr,round 3_mpcr,round 4_mpcr,round 5_mpcr,round 6_mpcr,round 7_mpcr,round 8_mpcr,round 9_mpcr,round 10_mpcr,round 1_payoff,round 2_payoff,round 3_payoff,round 4_payoff,round 5_payoff,round 6_payoff,round 7_payoff,round 8_payoff,round 9_payoff,round 10_payoff,round 1_total_contribution,round 2_total_contribution,round 3_total_contribution,round 4_total_contribution,round 5_total_contribution,round 6_total_contribution,round 7_total_contribution,round 8_total_contribution,round 9_total_contribution,round 10_total_contribution,player.gender,player.age,player.affiliation
015SUB01,0,1,0,1,2,0,1,0,0,0,0.45,0.525,0.45,0.6,0.75,0.525,0.75,0.6,0.45,0.525,16.75,15.3,11.35,10.8,9.5,10.525,9.75,10,10.9,10.525,15,12,3,3,2,1,1,0,2,1,男性,23,10
015SUB02,8,2,2,2,2,10,0,0,0,0,0.75,0.6,0.6,0.6,0.75,0.675,0.525,0.525,0.6,0.525,10.25,15.2,12.2,15.2,9.5,13.5,10.525,10.525,10,10.525,11,12,7,12,2,20,1,1,0,1,男性,24,22
015SUB03,10,1,2,1,1,10,10,0,0,1,0.675,0.525,0.75,0.6,0.525,0.675,0.75,0.525,0.6,0.75,14.175,15.3,10.25,10.8,11.1,13.5,7.5,10.525,10,9.75,21,12,3,3,4,20,10,1,0,1,女性,24,22
015SUB04,10,1,1,1,0,0,0,0,0,0,0.675,0.45,0.6,0.6,0.525,0.45,0.6,0.6,0.6,0.6,14.175,12.6,13.2,10.8,15.25,12.7,10,10,10,10,21,8,7,3,10,6,0,0,0,0,男性,23,3
015SUB05,4,4,6,4,2,2,0,0,0,0,0.6,0.45,0.75,0.75,0.6,0.75,0.6,0.6,0.6,0.6,13.8,16.8,9.25,9.75,15.2,9.5,10,10,10,10,13,24,7,5,12,2,0,0,0,0,男性,21,10
015SUB06,0,0,0,0,0,0,0,0,0,0,0.45,0.45,0.45,0.6,0.525,0.525,0.6,0.525,0.6,0.525,19,15.4,17.65,10,11.05,11.05,10,10.525,10,10.525,20,12,17,0,2,2,0,1,0,1,男性,19,5
015SUB07,0,0,0,0,0,0,0,0,0,0,0.45,0.6,0.45,0.45,0.45,0.525,0.45,0.525,0.6,0.6,14.95,10,14.5,12.25,15.4,15.25,14.95,10.525,10,10,11,0,10,5,12,10,11,1,0,0,男性,23,27
015SUB08,10,10,10,10,10,0,0,0,0,0,0.6,0.75,0.675,0.75,0.75,0.525,0.6,0.45,0.525,0.525,18,9,14.175,9.75,7.5,10.525,10,15.4,15.25,10.525,30,12,21,13,10,1,0,12,10,1,男性,22,10
015SUB09,10,10,10,2,2,2,2,2,0,0,0.75,0.75,0.75,0.6,0.75,0.6,0.6,0.6,0.6,0.525,14.25,9,12.75,15.8,11,15.8,11.6,15.2,10,15.25,19,12,17,13,4,13,6,12,0,10,男性,26,22
015SUB10,10,0,0,0,0,0,1,1,0,0,0.675,0.45,0.525,0.45,0.525,0.45,0.675,0.75,0.525,0.525,13.5,10.9,15.25,15.4,11.05,11.35,10.35,9.75,15.25,10.525,20,2,10,12,2,3,2,1,10,1,男性,24,22
015SUB11,0,0,0,0,0,0,0,0,0,0,0.45,0.6,0.45,0.45,0.45,0.45,0.525,0.6,0.6,0.525,18.55,10,13.15,15.4,15.4,19,15.25,10,10,10.525,19,0,7,12,12,20,10,0,0,1,女性,23,10
015SUB12,10,10,10,10,10,10,10,0,10,10,0.75,0.75,0.75,0.75,0.75,0.75,0.75,0.525,0.75,0.75,11.25,9,7.5,9,8.25,7.5,8.25,14.725,7.5,7.5,15,12,10,12,11,10,11,9,10,10,男性,19,10
015SUB13,5,5,5,1,1,1,1,1,1,1,0.6,0.75,0.75,0.6,0.6,0.45,0.675,0.75,0.675,0.75,14,11,10.25,12,15.6,14.85,10.35,9.75,10.35,9.75,15,8,7,5,11,13,2,1,2,1,男性,25,22
015SUB14,1,2,2,2,1,2,0,0,0,0,0.45,0.6,0.6,0.6,0.525,0.75,0.45,0.525,0.6,0.6,14.85,12.8,14,15.2,11.1,10.25,10.9,10.525,10,10,13,8,10,12,4,3,2,1,0,0,男性,20,10
015SUB15,8,0,7,10,0,5,0,0,0,0,0.75,0.45,0.6,0.75,0.525,0.75,0.525,0.525,0.6,0.525,11.75,16.3,13.2,9,11.05,9.5,10.525,10.525,10,10.525,13,14,17,12,2,6,1,1,0,1,男性,24,22
015SUB16,1,1,10,2,2,1,0,0,1,0,0.45,0.675,0.675,0.6,0.6,0.75,0.525,0.6,0.525,0.6,18.45,10.35,14.175,15.2,15.2,9.75,15.25,10,15.3,10,21,2,21,12,12,1,10,0,12,0,男性,23,8
015SUB17,3,2,1,1,1,1,1,1,1,1,0.6,0.6,0.6,0.75,0.6,0.6,0.6,0.75,0.675,0.75,13.6,15.2,10.8,9.75,15.6,10.8,15.6,9.75,10.35,9.75,11,12,3,1,11,3,11,1,2,1,男性,19,11
015SUB18,9,0,1,0,0,1,0,0,0,0,0.6,0.45,0.45,0.45,0.525,0.75,0.6,0.525,0.6,0.6,12.4,15.4,18.45,15.4,15.25,9.75,10,10.525,10,10,19,12,21,12,10,1,0,1,0,0,男性,22,26
015SUB19,10,10,10,10,10,0,10,10,0,0,0.6,0.675,0.675,0.75,0.75,0.525,0.75,0.75,0.6,0.6,18,16.2,13.5,9,9,10.525,7.5,9,10,10,30,24,20,12,12,1,10,12,0,0,男性,24,22
015SUB20,0,1,0,0,0,0,0,0,0,0,0.45,0.675,0.525,0.6,0.525,0.525,0.6,0.525,0.6,0.6,14.5,10.35,15.25,10,11.05,11.05,10,10.525,10,10,10,2,10,0,2,2,0,1,0,0,男性,24,22
015SUB21,1,0,0,0,0,0,0,0,0,0,0.6,0.6,0.45,0.525,0.45,0.525,0.525,0.525,0.6,0.6,15,10,19,10.525,14.95,10.525,15.25,14.725,10,10,10,0,20,1,11,1,10,9,0,0,男性,24,22
015SUB22,10,5,0,0,0,1,1,1,1,1,0.675,0.6,0.45,0.525,0.45,0.6,0.45,0.75,0.525,0.75,13.5,13.4,13.15,10.525,14.95,12.6,11.7,9.75,15.3,9.75,20,14,7,1,11,6,6,1,12,1,男性,20,7
015SUB23,9,9,8,1,10,10,3,9,10,0,0.75,0.75,0.75,0.45,0.75,0.75,0.75,0.75,0.75,0.525,8.5,11.5,9.5,14.85,9,9.75,11.5,7.75,9,15.25,10,14,10,13,12,13,6,9,12,10,男性,21,10
015SUB24,10,10,10,0,10,0,0,0,0,0,0.6,0.675,0.675,0.6,0.75,0.525,0.525,0.6,0.6,0.525,18,16.2,13.5,10,8.25,15.25,15.25,10,10,10.525,30,24,20,0,11,10,10,0,0,1,男性,22,27
015sub25,10,10,10,10,0,0,0,0,0,3,0.75,0.6,0.675,0.75,0.45,0.45,0.45,0.45,0.525,0.6,13.5,18,16.2,13.5,17.2,17.65,15.85,14.95,11.05,14.8,18,30,24,18,16,17,13,11,2,13,男性,24,22
015sub26,5,4,4,4,4,4,4,4,4,4,0.6,0.6,0.675,0.75,0.45,0.6,0.6,0.675,0.75,0.675,12.2,16.2,12.75,11.25,13.65,15,15,12.75,11.25,12.075,12,17,10,7,17,15,15,10,7,9,男性,29,22
015sub27,10,10,10,10,10,10,10,10,0,0,0.6,0.6,0.675,0.75,0.675,0.6,0.75,0.75,0.45,0.6,18,18,17.55,15.75,16.875,18,11.25,12,19,10,30,30,26,21,25,30,15,16,20,0,男性,24,22
015sub28,5,5,5,5,8,10,10,10,10,10,0.6,0.75,0.675,0.45,0.75,0.75,0.75,0.675,0.75,0.75,14.6,12.5,14.45,14.45,14.75,12.75,11.25,16.2,9,10.5,16,10,14,21,17,17,15,24,12,14,男性,20,16
015sub29,10,10,10,10,10,10,10,10,10,10,0.675,0.75,0.75,0.675,0.6,0.6,0.75,0.75,0.675,0.675,16.875,12.75,13.5,17.55,18,18,9.75,8.25,13.5,14.175,25,17,18,26,30,30,13,11,20,21,男性,22,10
015sub30,10,10,10,10,10,1,10,10,3,10,0.675,0.6,0.675,0.6,0.6,0.6,0.675,0.675,0.6,0.75,18.9,18,16.875,18,18,15.6,14.175,13.5,11.2,9.75,28,30,25,30,30,11,21,20,7,13,女性,21,12
015sub31,10,10,10,10,10,10,0,5,10,0,0.6,0.6,0.675,0.675,0.6,0.675,0.525,0.75,0.675,0.45,18,18,17.55,17.55,18,14.175,15.25,13.25,13.5,15.85,30,30,26,26,30,21,10,11,20,13,男性,18,4
015sub32,6,5,2,6,0,10,1,1,1,1,0.75,0.6,0.45,0.75,0.45,0.75,0.45,0.6,0.6,0.6,13,16.4,12.5,13,19,11.25,15.75,15.6,12,11.4,12,19,10,12,20,15,15,11,5,4,男性,19,10
015sub33,10,3,6,6,10,1,5,1,2,1,0.75,0.45,0.6,0.45,0.675,0.45,0.675,0.6,0.75,0.45,15,14.65,14.8,15.7,18.9,15.75,11.75,15.6,9.5,13.05,20,17,18,26,28,15,10,11,2,9,男性,21,10
015sub34,5,7,4,6,10,7,3,4,3,4,0.525,0.6,0.45,0.45,0.75,0.6,0.6,0.6,0.525,0.675,15.5,13.2,12.3,15.7,9,14.4,16,12.6,13.3,12.075,20,17,14,26,12,19,15,11,12,9,男性,18,4
015sub35,10,10,10,10,10,10,10,10,10,0,0.75,0.75,0.675,0.675,0.675,0.75,0.675,0.675,0.675,0.45,12,15,14.175,17.55,18.9,14.25,13.5,13.5,14.85,11.8,16,20,21,26,28,19,20,20,22,4,男性,24,22
015sub36,8,10,10,10,10,10,10,10,0,0,0.45,0.6,0.675,0.75,0.675,0.675,0.675,0.75,0.45,0.6,14.6,18,16.875,16.5,16.875,16.875,14.175,8.25,13.15,10,28,30,25,22,25,25,21,11,7,0,どちらでもない,26,14
015sub37,10,10,10,10,10,10,0,0,2,2,0.675,0.6,0.675,0.6,0.75,0.675,0.45,0.45,0.6,0.45,18.9,18,16.875,18,12,14.175,14.5,14.95,12.2,14.75,28,30,25,30,16,21,10,11,7,15,どちらでもない,56,6
015sub38,10,10,10,10,10,10,10,10,10,10,0.675,0.75,0.675,0.675,0.675,0.6,0.75,0.75,0.675,0.675,16.875,14.25,16.2,17.55,13.5,18,9.75,8.25,14.85,14.175,25,19,24,26,20,30,13,11,22,21,女性,23,7
015sub39,1,1,1,1,1,2,2,2,1,2,0.45,0.45,0.45,0.45,0.525,0.45,0.6,0.45,0.45,0.525,16.2,16.65,18.45,12.15,15.3,16.55,15.8,12.95,12.15,15.35,16,17,21,7,12,19,13,11,7,14,男性,24,10
015sub40,5,5,5,5,5,5,5,0,0,0,0.45,0.525,0.45,0.6,0.6,0.45,0.675,0.45,0.45,0.6,16.25,15.5,16.25,12.2,15.2,16.25,11.75,14.95,12.25,10,25,20,25,12,17,25,10,11,5,0,男性,21,10
015sub41,4,5,5,6,6,0,2,4,4,0,0.525,0.525,0.45,0.6,0.6,0.45,0.45,0.675,0.75,0.45,15.45,15.5,16.25,16.6,13.6,14.95,14.75,12.75,9.75,19,18,20,25,21,16,11,15,10,5,20,男性,18,16
015sub42,4,10,4,6,10,10,10,6,6,10,0.525,0.75,0.45,0.6,0.6,0.675,0.75,0.6,0.75,0.675,15.45,10.5,16.8,14.8,18,16.875,7.5,13.6,13,13.5,18,14,24,18,30,25,10,16,12,20,男性,18,4
015sub43,2,2,2,2,1,1,1,2,2,2,0.525,0.525,0.45,0.45,0.525,0.45,0.45,0.45,0.45,0.525,15.35,15.35,16.1,16.1,15.3,18.45,14.85,12.5,17.9,15.35,14,14,18,18,12,21,13,10,22,14,女性,19,1
015sub44,10,3,4,2,5,10,10,0,0,10,0.6,0.6,0.675,0.6,0.45,0.675,0.675,0.45,0.525,0.75,18,13,12.75,12.2,16.25,14.85,13.5,17.2,11.05,11.25,30,10,10,7,25,22,20,16,2,15,男性,18,12
015sub45,2,4,5,6,10,7,0,1,2,1,0.525,0.45,0.675,0.525,0.6,0.6,0.525,0.6,0.6,0.45,15.35,14.55,14.45,15.55,18,13.2,15.25,15.6,15.2,18.45,14,19,14,22,30,17,10,11,12,21,男性,22,22
015sub46,10,9,10,10,10,2,0,0,0,3,0.75,0.75,0.675,0.6,0.675,0.45,0.45,0.45,0.45,0.6,10.5,13.75,14.175,18,13.5,17.9,19,19,15.4,16,14,17,21,30,20,22,20,20,12,15,男性,22,9
015sub47,1,2,6,6,8,10,3,4,4,3,0.45,0.525,0.45,0.525,0.45,0.75,0.6,0.45,0.75,0.75,14.4,15.35,15.7,15.55,14.6,8.25,14.8,16.8,11.25,10,12,14,26,22,28,11,13,24,7,4,男性,199,10
015sub48,5,2,10,1,10,10,1,10,3,10,0.525,0.45,0.675,0.45,0.6,0.675,0.45,0.675,0.525,0.675,15.5,12.5,16.875,14.4,18,14.85,18.45,16.2,13.3,13.5,20,10,25,12,30,22,21,24,12,20,女性,24,14
03SUB01,10,10,10,10,10,10,10,10,10,10,0.75,0.6,0.6,0.6,0.6,0.6,0.6,0.6,0.6,0.6,18.75,18,18,18,18,18,18,18,18,18,25,30,30,30,30,30,30,30,30,30,NA,NA,NA
03SUB02,5,10,10,10,10,10,10,10,10,10,0.3,0.6,0.6,0.6,0.6,0.6,0.6,0.6,0.6,0.6,12.5,18,18,18,18,18,18,18,18,18,25,30,30,30,30,30,30,30,30,30,NA,NA,NA
03SUB03,9,10,10,10,10,10,10,10,10,10,0.9,0.6,0.6,0.6,0.6,0.6,0.6,0.6,0.6,0.6,22.6,18,18,18,18,18,18,18,18,18,24,30,30,30,30,30,30,30,30,30,NA,NA,NA
03SUB04,10,10,10,10,10,10,10,10,10,10,0.75,0.75,0.6,0.75,0.6,0.6,0.6,0.6,0.6,0.6,21.75,15,18,15,18,18,18,18,18,18,29,20,30,20,30,30,30,30,30,30,NA,NA,NA
03SUB05,9,10,10,10,10,10,10,10,10,10,0.3,0.6,0.6,0.6,0.6,0.6,0.6,0.6,0.6,0.6,9.7,18,18,18,18,18,18,18,18,18,29,30,30,30,30,30,30,30,30,30,NA,NA,NA
03SUB06,10,10,10,5,10,10,10,10,10,10,0.75,0.6,0.6,0.3,0.6,0.6,0.6,0.6,0.6,0.6,18.75,18,18,12.5,18,18,18,18,18,18,25,30,30,25,30,30,30,30,30,30,NA,NA,NA
03SUB07,10,10,10,10,10,10,10,10,10,10,0.6,0.6,0.6,0.6,0.6,0.6,0.6,0.75,0.75,0.6,18,18,18,18,18,18,18,15,15,18,30,30,30,30,30,30,30,20,20,30,NA,NA,NA
03SUB08,8,8,0,10,0,10,10,10,10,10,0.6,0.3,0.3,0.6,0.3,0.6,0.6,0.6,0.6,0.6,16.4,10.4,16,18,16,18,18,18,18,18,24,28,20,30,20,30,30,30,30,30,NA,NA,NA
03SUB09,10,10,10,10,10,10,10,10,10,10,0.75,0.75,0.75,0.6,0.6,0.6,0.6,0.6,0.6,0.6,15,21,15,18,18,18,18,18,18,18,20,28,20,30,30,30,30,30,30,30,NA,NA,NA
03SUB10,0,0,0,0,0,0,0,0,0,10,0.3,0.3,0.3,0.3,0.3,0.3,0.3,0.3,0.3,0.6,16,16,16,16,16,16,16,16,16,18,20,20,20,20,20,20,20,20,20,30,NA,NA,NA
03SUB11,10,10,10,10,10,10,10,10,10,10,0.6,0.6,0.6,0.6,0.6,0.75,0.75,0.6,0.6,0.6,18,18,18,18,18,15,15,18,18,18,30,30,30,30,30,20,20,30,30,30,NA,NA,NA
03SUB12,10,10,9,10,10,10,10,10,10,10,0.75,0.6,0.3,0.75,0.6,0.75,0.6,0.6,0.6,0.6,15,18,9.7,18.75,18,21.75,18,18,18,18,20,30,29,25,30,29,30,30,30,30,NA,NA,NA
03SUB13,7,8,10,10,10,9,10,10,10,10,0.3,0.3,0.6,0.6,0.75,0.3,0.6,0.6,0.75,0.6,10.2,10.4,18,18,15,9.7,18,18,15,18,24,28,30,30,20,29,30,30,20,30,NA,NA,NA
03SUB14,10,10,10,10,10,10,10,10,10,10,0.6,0.75,0.6,0.6,0.6,0.6,0.6,0.6,0.6,0.6,18,21,18,18,18,18,18,18,18,18,30,28,30,30,30,30,30,30,30,30,NA,NA,NA
03SUB15,9,10,10,10,10,10,10,10,10,10,0.3,0.75,0.6,0.6,0.6,0.6,0.6,0.6,0.6,0.6,9.7,15,18,18,18,18,18,18,18,18,29,20,30,30,30,30,30,30,30,30,NA,NA,NA
03SUB16,10,10,10,10,10,10,10,10,10,10,0.75,0.75,0.75,0.6,0.6,0.6,0.6,0.6,0.6,0.6,21.75,21.75,21.75,18,18,18,18,18,18,18,29,29,29,30,30,30,30,30,30,30,NA,NA,NA
03SUB17,10,10,10,10,10,10,10,10,10,10,0.6,0.6,0.6,0.6,0.6,0.6,0.6,0.6,0.6,0.6,18,18,18,18,18,18,18,18,18,18,30,30,30,30,30,30,30,30,30,30,NA,NA,NA
03SUB18,10,10,10,10,10,10,10,10,10,10,0.75,0.75,0.6,0.75,0.6,0.6,0.6,0.75,0.6,0.6,21.75,21,18,18.75,18,18,18,15,18,18,29,28,30,25,30,30,30,20,30,30,NA,NA,NA
03SUB19,10,10,10,10,10,10,10,10,10,10,0.6,0.75,0.6,0.75,0.6,0.6,0.75,0.6,0.6,0.6,18,21,18,15,18,18,15,18,18,18,30,28,30,20,30,30,20,30,30,30,NA,NA,NA
03SUB20,10,10,10,10,10,10,10,10,10,10,0.75,0.6,0.6,0.6,0.75,0.6,0.6,0.6,0.6,0.6,21.75,18,18,18,15,18,18,18,18,18,29,30,30,30,20,30,30,30,30,30,NA,NA,NA
03SUB21,10,10,10,10,10,10,10,10,10,10,0.6,0.6,0.75,0.6,0.75,0.75,0.6,0.6,0.6,0.6,18,18,15,18,15,21.75,18,18,18,18,30,30,20,30,20,29,30,30,30,30,NA,NA,NA
03SUB22,10,10,10,10,10,10,0,10,10,10,0.6,0.75,0.75,0.6,0.6,0.75,0.3,0.6,0.6,0.6,18,21.75,15,18,18,15,16,18,18,18,30,29,20,30,30,20,20,30,30,30,NA,NA,NA
03SUB23,10,9,10,10,10,10,10,10,10,10,0.6,0.3,0.75,0.6,0.6,0.6,0.75,0.6,0.6,0.6,18,9.7,21.75,18,18,18,15,18,18,18,30,29,29,30,30,30,20,30,30,30,NA,NA,NA
03SUB24,10,10,10,10,10,10,10,10,10,10,0.6,0.6,0.75,0.6,0.75,0.6,0.75,0.6,0.6,0.6,18,18,15,18,15,18,15,18,18,18,30,30,20,30,20,30,20,30,30,30,NA,NA,NA
03sub25,10,10,0,10,10,10,10,10,10,10,0.9,0.6,0.3,0.6,0.6,0.6,0.6,0.6,0.6,0.6,22.5,18,16,18,18,18,18,18,18,18,25,30,20,30,30,30,30,30,30,30,NA,NA,NA
03sub26,0,0,10,10,10,10,10,10,10,10,0.3,0.3,0.6,0.6,0.6,0.6,0.6,0.6,0.6,0.75,16,16,18,18,18,18,18,18,18,21.75,20,20,30,30,30,30,30,30,30,29,NA,NA,NA
03sub27,10,10,10,10,10,10,10,10,10,10,0.75,0.6,0.6,0.6,0.6,0.6,0.6,0.6,0.6,0.6,21,18,18,18,18,18,18,18,18,18,28,30,30,30,30,30,30,30,30,30,NA,NA,NA
03sub28,6,5,3,9,10,10,10,10,10,10,0.3,0.3,0.3,0.6,0.6,0.6,0.6,0.6,0.6,0.6,11.5,12.5,13.9,12.4,18,18,18,18,18,18,25,25,23,19,30,30,30,30,30,30,NA,NA,NA
03sub29,10,10,10,10,10,10,10,10,10,10,0.9,0.6,0.75,0.6,0.6,0.6,0.6,0.6,0.6,0.75,25.2,18,17.25,18,18,18,18,18,18,21.75,28,30,23,30,30,30,30,30,30,29,NA,NA,NA
03sub30,9,10,10,10,10,10,10,10,10,10,0.45,0.6,0.6,0.6,0.6,0.6,0.6,0.6,0.6,0.6,13.6,18,18,18,18,18,18,18,18,18,28,30,30,30,30,30,30,30,30,30,NA,NA,NA
03sub31,10,10,10,10,10,10,10,10,10,10,0.6,0.75,0.6,0.6,0.6,0.6,0.6,0.6,0.6,0.6,18,15,18,18,18,18,18,18,18,18,30,20,30,30,30,30,30,30,30,30,NA,NA,NA
03sub32,10,10,10,10,10,10,10,10,10,10,0.6,0.75,0.75,0.6,0.6,0.6,0.6,0.6,0.6,0.6,18,15,17.25,18,18,18,18,18,18,18,30,20,23,30,30,30,30,30,30,30,NA,NA,NA
03sub33,7,8,10,10,10,10,10,10,10,10,0.3,0.3,0.6,0.6,0.6,0.6,0.6,0.6,0.6,0.6,10.5,10.4,18,18,18,18,18,18,18,18,25,28,30,30,30,30,30,30,30,30,NA,NA,NA
03sub34,10,10,10,10,10,10,10,10,10,10,0.6,0.6,0.75,0.6,0.6,0.6,0.6,0.6,0.6,0.6,18,18,15,18,18,18,18,18,18,18,30,30,20,30,30,30,30,30,30,30,NA,NA,NA
03sub35,9,10,10,10,10,10,10,10,10,10,0.45,0.6,0.6,0.9,0.6,0.6,0.6,0.6,0.6,0.6,13.6,18,18,17.1,18,18,18,18,18,18,28,30,30,19,30,30,30,30,30,30,NA,NA,NA
03sub36,8,10,10,0,10,10,10,10,10,10,0.6,0.6,0.6,0.3,0.6,0.6,0.6,0.6,0.6,0.6,17,18,18,16,18,18,18,18,18,18,25,30,30,20,30,30,30,30,30,30,NA,NA,NA
03sub37,10,10,10,10,10,10,10,10,10,10,0.75,0.75,0.6,0.6,0.75,0.6,0.6,0.6,0.6,0.6,21,18.75,18,18,16.5,18,18,18,18,18,28,25,30,30,22,30,30,30,30,30,NA,NA,NA
03sub38,8,10,10,10,10,10,10,10,10,10,0.3,0.6,0.6,0.6,0.6,0.6,0.6,0.6,0.6,0.6,10.4,18,18,18,18,18,18,18,18,18,28,30,30,30,30,30,30,30,30,30,NA,NA,NA
03sub39,9,10,10,10,10,10,10,10,10,10,0.6,0.6,0.6,0.6,0.6,0.6,0.6,0.6,0.6,0.6,16,18,18,18,18,18,18,18,18,18,25,30,30,30,30,30,30,30,30,30,NA,NA,NA
03sub40,9,10,10,10,10,10,10,10,10,10,0.3,0.6,0.6,0.75,0.6,0.6,0.6,0.6,0.6,0.6,9.7,18,18,15,18,18,18,18,18,18,29,30,30,20,30,30,30,30,30,30,NA,NA,NA
03sub41,10,10,10,10,10,10,10,10,10,9,0.9,0.75,0.6,0.75,0.6,0.6,0.6,0.6,0.6,0.3,22.5,18.75,18,15,18,18,18,18,18,9.7,25,25,30,20,30,30,30,30,30,29,NA,NA,NA
03sub42,10,10,10,10,10,10,10,10,10,10,0.75,0.6,0.6,0.6,0.6,0.6,0.6,0.6,0.6,0.6,15,18,18,18,18,18,18,18,18,18,20,30,30,30,30,30,30,30,30,30,NA,NA,NA
03sub43,10,10,10,10,10,10,10,10,10,10,0.75,0.6,0.6,0.6,0.75,0.6,0.6,0.6,0.6,0.6,15,18,18,18,16.5,18,18,18,18,18,20,30,30,30,22,30,30,30,30,30,NA,NA,NA
03sub44,10,10,10,10,10,10,10,10,10,10,0.6,0.6,0.6,0.6,0.6,0.6,0.6,0.6,0.6,0.6,18,18,18,18,18,18,18,18,18,18,30,30,30,30,30,30,30,30,30,30,NA,NA,NA
03sub45,10,10,10,10,10,10,10,10,10,10,0.75,0.6,0.6,0.6,0.6,0.6,0.6,0.6,0.6,0.6,21.75,18,18,18,18,18,18,18,18,18,29,30,30,30,30,30,30,30,30,30,NA,NA,NA
03sub46,10,10,10,10,10,10,10,10,10,10,0.75,0.6,0.6,0.6,0.6,0.6,0.6,0.6,0.6,0.6,21.75,18,18,18,18,18,18,18,18,18,29,30,30,30,30,30,30,30,30,30,NA,NA,NA
03sub47,10,10,10,0,2,10,10,10,10,10,0.6,0.75,0.75,0.3,0.3,0.6,0.6,0.6,0.6,0.6,18,21,15,15.7,14.6,18,18,18,18,18,30,28,20,19,22,30,30,30,30,30,NA,NA,NA
03sub48,10,10,10,10,10,10,10,10,10,10,0.6,0.75,0.6,0.6,0.6,0.6,0.6,0.6,0.6,0.6,18,21,18,18,18,18,18,18,18,18,30,28,30,30,30,30,30,30,30,30,NA,NA,NA
SUB01,0,0,0,0,0,0,0,0,0,0,NA,NA,NA,NA,NA,NA,NA,NA,NA,NA,11.8,11.8,11.2,10.6,10.6,11.2,10,11.2,10,11.8,3,3,2,1,1,2,0,2,0,3,NA,NA,NA
SUB02,4,3,3,3,2,1,0,0,0,0,NA,NA,NA,NA,NA,NA,NA,NA,NA,NA,10.2,14.8,13,11.8,12.8,9.6,10,10,10,11.2,7,13,10,8,8,1,0,0,0,2,NA,NA,NA
SUB03,0,0,1,2,0,0,1,0,0,0,NA,NA,NA,NA,NA,NA,NA,NA,NA,NA,13,12.4,12.6,12.2,10,11.2,9.6,10,10.6,11.2,5,4,6,7,0,2,1,0,1,2,NA,NA,NA
SUB04,3,3,2,2,1,0,0,0,0,10,NA,NA,NA,NA,NA,NA,NA,NA,NA,NA,17.2,15.4,12.8,12.8,9.6,10,10,10,16,7.2,17,14,8,8,1,0,0,0,10,12,NA,NA,NA
SUB05,8,7,5,5,7,0,2,0,1,2,NA,NA,NA,NA,NA,NA,NA,NA,NA,NA,12.2,12.6,11,15.2,7.2,10,9.2,10,9.6,15.2,17,16,10,17,7,0,2,0,1,12,NA,NA,NA
SUB06,10,10,10,10,5,0,0,0,0,0,NA,NA,NA,NA,NA,NA,NA,NA,NA,NA,9,6,7.8,10.2,9.2,10,10.6,11.2,11.2,10,15,10,13,17,7,0,1,2,2,0,NA,NA,NA
SUB07,5,3,5,0,0,0,0,0,0,0,NA,NA,NA,NA,NA,NA,NA,NA,NA,NA,14,8.8,9.8,11.2,20.8,11.8,10.6,10,10.6,10,15,3,8,2,18,3,1,0,1,0,NA,NA,NA
SUB08,0,0,2,3,0,0,0,0,0,0,NA,NA,NA,NA,NA,NA,NA,NA,NA,NA,19,17.8,14,14.8,12.4,10,10.6,10,10,10,15,13,10,13,4,0,1,0,0,0,NA,NA,NA
SUB09,0,0,0,0,0,0,0,0,0,0,NA,NA,NA,NA,NA,NA,NA,NA,NA,NA,14.2,16,17.8,12.4,13,12.4,10,10,10,10,7,10,13,4,5,4,0,0,0,0,NA,NA,NA
SUB10,3,0,0,0,0,0,0,0,0,0,NA,NA,NA,NA,NA,NA,NA,NA,NA,NA,8.8,16,17.8,11.2,14.8,11.2,10,10,11.2,10,3,10,13,2,8,2,0,0,2,0,NA,NA,NA
SUB11,3,2,1,3,0,2,1,0,0,0,NA,NA,NA,NA,NA,NA,NA,NA,NA,NA,13.6,10.4,11.4,11.8,14.2,10.4,9.6,10,10,16,11,4,4,8,7,4,1,0,0,10,NA,NA,NA
SUB12,4,3,3,2,0,0,0,0,0,0,NA,NA,NA,NA,NA,NA,NA,NA,NA,NA,11.4,13.6,10.6,9.2,10,10,10.6,10,16,10,9,11,6,2,0,0,1,0,10,0,NA,NA,NA
SUB13,0,0,0,0,0,0,0,0,0,0,NA,NA,NA,NA,NA,NA,NA,NA,NA,NA,11.8,11.8,13.6,17.8,10,11.2,10,14.8,11.2,10,3,3,6,13,0,2,0,8,2,0,NA,NA,NA
SUB14,8,5,3,5,0,0,1,0,0,0,NA,NA,NA,NA,NA,NA,NA,NA,NA,NA,8.6,11.6,14.8,9.2,14.2,16,9.6,10,10,10,11,11,13,7,7,10,1,0,0,0,NA,NA,NA
SUB15,2,2,2,2,2,2,2,2,2,2,NA,NA,NA,NA,NA,NA,NA,NA,NA,NA,11,10.4,9.2,18.2,12.2,9.2,20,9.2,9.2,9.2,5,4,2,17,7,2,20,2,2,2,NA,NA,NA
SUB16,3,3,3,1,0,2,0,0,0,3,NA,NA,NA,NA,NA,NA,NA,NA,NA,NA,17.8,13.6,9.4,9.6,12.4,9.2,11.2,10,14.8,8.8,18,11,4,1,4,2,2,0,8,3,NA,NA,NA
SUB17,10,10,10,10,10,10,10,10,10,10,NA,NA,NA,NA,NA,NA,NA,NA,NA,NA,10.8,7.8,7.8,7.8,10.8,6,12,6,6,6,18,13,13,13,18,10,20,10,10,10,NA,NA,NA
SUB18,5,8,3,5,8,2,8,8,8,8,NA,NA,NA,NA,NA,NA,NA,NA,NA,NA,10.4,9.8,14.8,9.8,12.8,10.4,14,6.8,6.8,9.2,9,13,13,8,18,4,20,8,8,12,NA,NA,NA
SUB19,0,4,3,0,0,0,0,0,0,0,NA,NA,NA,NA,NA,NA,NA,NA,NA,NA,15.4,13.8,10.6,14.2,14.2,11.8,10,16,10,11.8,9,13,6,7,7,3,0,10,0,3,NA,NA,NA
SUB20,5,1,1,4,4,0,0,0,0,4,NA,NA,NA,NA,NA,NA,NA,NA,NA,NA,15.8,16.8,13.8,8.4,8.4,10,10.6,10,11.2,13.2,18,13,8,4,4,0,1,0,2,12,NA,NA,NA
SUB21,3,3,3,0,3,3,0,0,0,0,NA,NA,NA,NA,NA,NA,NA,NA,NA,NA,10,16.6,10.6,14.8,10,8.8,10,10,14.8,17.2,5,16,6,8,5,3,0,0,8,12,NA,NA,NA
SUB22,0,10,0,0,2,0,0,0,0,0,NA,NA,NA,NA,NA,NA,NA,NA,NA,NA,16.6,8.4,11.2,12.4,11,10.6,11.2,10,10,16,11,14,2,4,5,1,2,0,0,10,NA,NA,NA
SUB23,6,6,2,3,6,0,0,0,2,0,NA,NA,NA,NA,NA,NA,NA,NA,NA,NA,14.2,13.6,11.6,11.8,8.8,10.6,10.6,16,9.2,17.2,17,16,6,8,8,1,1,10,2,12,NA,NA,NA
SUB24,3,1,0,0,0,0,0,0,0,0,NA,NA,NA,NA,NA,NA,NA,NA,NA,NA,11.2,17.4,12.4,10.6,10.6,16,10,14.8,10,10,7,14,4,1,1,10,0,8,0,0,NA,NA,NA
